{
  "resourceType": "Bundle",
  "id": "IPS-examples-Bundle-01",
  "meta": {
    "profile": [
      "https://www.earlytracks.com/standards/fhir/ips_be/StructureDefinition/BundleBeIPS"
    ]
  },
  "type": "document",
  "language": "en-US",
  "identifier": {
    "system": "urn:oid:2.16.724.4.8.10.200.10",
    "value": "175bd032-8b00-4728-b2dc-748bb1501aed"
  },
  "timestamp": "2017-12-11T14:30:00+01:00",
  "entry": [
    {
      "fullUrl": "urn:uuid:30551ce1-5a28-4356-b684-1e639094ad4d",
      "resource": {
        "resourceType": "Composition",
        "id": "composition-etpatient0001",
        "identifier": {
          "system": "urn:oid:2.16.724.4.8.10.200.10",
          "value": "3f69e0a5-2177-4540-baab-7a5d0877428f"
        },
        "status": "final",
        "type": {
          "coding": [
            {
              "code": "60591-5",
              "system": "http://loinc.org",
              "display": "Patient summary Document"
            }
          ]
        },
        "subject": {
          "reference": "Patient/etpatient0001"
        },
        "date": "2019-07-01T13:30:55.864+00:00",
        "author": [
          {
            "reference": "Practitioner/practitioner1"
          }
        ],
        "title": "Patient IPS Example, as produced by EarlyTracks, as of July 07, 2019 14:30",
        "confidentiality": "N",
        "attester": [
          {
            "mode": "legal",
            "time": "2019-07-01T13:30:55.864+00:00",
            "party": {
              "reference": "Practitioner/practitioner1"
            }
          },
          {
            "mode": "legal",
            "time": "2019-07-01T13:30:55.864+00:00",
            "party": {
              "reference": "Organization/organization1"
            }
          }
        ],
        "custodian": {
          "reference": "Organization/organization1"
        },
        "relatesTo": [
          {
            "code": "appends",
            "targetIdentifier": {
              "system": "urn:oid:2.16.724.4.8.10.200.10",
              "value": "c2277753-9f90-4a95-8ddb-a0b3f6e7d292"
            }
          }
        ],
        "event": [
          {
            "code": [
              {
                "coding": [
                  {
                    "code": "PCPR",
                    "system": "http://terminology.hl7.org/CodeSystem/v3-ActClass"
                  }
                ]
              }
            ],
            "period": {
              "end": "2019-07-01T13:30:55.864+00:00"
            }
          }
        ],
        "section": [
          {
            "title": "Active Problems",
            "code": {
              "coding": [
                {
                  "code": "11450-4",
                  "system": "http://loinc.org",
                  "display": "Problem list Reported"
                }
              ]
            },
            "text": {
              "status": "generated",
              "div": "<div xmlns=\"http://www.w3.org/1999/xhtml\">Severe strain of muscle of left hand</div>"
            },
            "entry": [
              {
                "reference": "Condition/problem-1"
              }
            ]
          },
          {
            "title": "Medication",
            "code": {
              "coding": [
                {
                  "code": "10160-0",
                  "system": "http://loinc.org",
                  "display": "History of Medication use Narrative"
                }
              ]
            },
            "text": {
              "status": "generated",
              "div": "<div xmlns=\"http://www.w3.org/1999/xhtml\">Product containing aspirin (medicinal product)</div>"
            },
            "entry": [
              {
                "reference": "MedicationStatement/medication-1"
              }
            ]
          },
          {
            "title": "Allergies and Intolerances",
            "code": {
              "coding": [
                {
                  "code": "48765-2",
                  "system": "http://loinc.org",
                  "display": "Allergies and adverse reactions Document"
                }
              ]
            },
            "text": {
              "status": "generated",
              "div": "<div xmlns=\"http://www.w3.org/1999/xhtml\">Allergic to Seafood</div>"
            },
            "entry": [
              {
                "reference": "AllergyIntolerance/allergy-1"
              }
            ]
          },
          {
            "title": "History of Procedures",
            "code": {
              "coding": [
                {
                  "system": "http://loinc.org",
                  "code": "47519-4",
                  "display": "History of Procedures Document"
                }
              ]
            },
            "text": {
              "status": "generated",
              "div": "<div xmlns=\"http://www.w3.org/1999/xhtml\">Vaginal delivery, medical personnel present (procedure)</div>"
            },
            "entry": [
              {
                "reference": "Procedure/procedure-1"
              }
            ]
          }
        ]
      }
    },
    {
      "fullUrl": "urn:uuid:30551ce1-5a28-4356-b684-1e639094ad4d",
      "resource": {
        "resourceType": "Patient",
        "id": "etpatient0001",
        "meta": {
          "versionId": "1",
          "lastUpdated": "2019-07-01T13:30:55.864+00:00",
          "profile": [
            "https://www.ehealth.fgov.be/standards/fhir/core/StructureDefinition/be-patient"
          ]
        },
        "extension": [
          {
            "url": "http://hl7.org/fhir/StructureDefinition/patient-birthPlace",
            "valueAddress": {
              "extension": [
                {
                  "url": "http://hl7.org/fhir/StructureDefinition/language",
                  "valueCode": "nl"
                }
              ],
              "city": "Namen",
              "country": "BE"
            }
          },
          {
            "extension": [
              {
                "url": "code",
                "valueCodeableConcept": {
                  "coding": [
                    {
                      "code": "BE",
                      "system": "https://www.ehealth.fgov.be/standards/fhir/core/CodeSystem/cd-fed-country",
                      "display": "Belgium"
                    }
                  ]
                }
              }
            ],
            "url": "http://hl7.org/fhir/StructureDefinition/patient-nationality"
          }
        ],
        "identifier": [
          {
            "use": "official",
            "type": {
              "coding": [
                {
                  "code": "SB",
                  "system": "http://terminology.hl7.org/CodeSystem/v2-0203",
                  "display": "Social Beneficiary Identifier"
                }
              ]
            },
            "system": "https://www.ehealth.fgov.be/standards/fhir/core/NamingSystem/ssin",
            "value": "79121137740"
          },
          {
            "use": "usual",
            "type": {
              "coding": [
                {
                  "code": "MR",
                  "system": "http://terminology.hl7.org/CodeSystem/v2-0203",
                  "display": "Medical record number"
                }
              ]
            },
            "system": "https://www.goodhealthhospital.be/standards/fhir/NamingSystem/patientrecord",
            "value": "45XXP0PA-4"
          }
        ],
        "active": true,
        "name": [
          {
            "use": "official",
            "family": "La Paradisio",
            "given": [
              "Josephine",
              "Nessa"
            ]
          }
        ],
        "telecom": [
          {
            "system": "email",
            "value": "nessa.laparadisio@belgium.be"
          },
          {
            "system": "phone",
            "value": "+322476792979",
            "use": "mobile"
          },
          {
            "system": "phone",
            "value": "+3226718655",
            "use": "home"
          },
          {
            "system": "phone",
            "value": "+322476799",
            "use": "work"
          }
        ],
        "gender": "female",
        "birthDate": "1979-12-11",
        "_birthDate": {
          "extension": [
            {
              "url": "http://hl7.org/fhir/StructureDefinition/patient-birthTime",
              "valueDateTime": "1979-12-11T13:28:17-05:00"
            }
          ]
        },
        "address": [
          {
            "extension": [
              {
                "url": "http://hl7.org/fhir/StructureDefinition/language",
                "valueCode": "nl"
              }
            ],
            "use": "home",
            "type": "both",
            "text": "Sloordelle 42, 1160 Oudergem",
            "line": [
              "Sloordelle 42"
            ],
            "_line": [
              {
                "extension": [
                  {
                    "url": "http://hl7.org/fhir/StructureDefinition/iso21090-ADXP-streetName",
                    "valueString": "Sloordelle"
                  },
                  {
                    "url": "http://hl7.org/fhir/StructureDefinition/iso21090-ADXP-houseNumber",
                    "valueString": "42"
                  }
                ]
              }
            ],
            "city": "Oudergem",
            "postalCode": "1160",
            "country": "BE"
          },
          {
            "extension": [
              {
                "url": "http://hl7.org/fhir/StructureDefinition/language",
                "valueCode": "fr"
              }
            ],
            "use": "home",
            "type": "both",
            "text": "42, Allee des Colzas, 1160 Auderghem",
            "line": [
              "42, Allee des Colzas"
            ],
            "_line": [
              {
                "extension": [
                  {
                    "url": "http://hl7.org/fhir/StructureDefinition/iso21090-ADXP-streetName",
                    "valueString": "Allee des Colzas"
                  },
                  {
                    "url": "http://hl7.org/fhir/StructureDefinition/iso21090-ADXP-houseNumber",
                    "valueString": "42"
                  }
                ]
              }
            ],
            "city": "Auderghem",
            "postalCode": "1160",
            "country": "BE"
          },
          {
            "use": "work",
            "type": "both",
            "text": "377, Avenue Prince d'Orange, 1420 Braine-lʼAlleud",
            "line": [
              "377, Avenue Prince d'Orange"
            ],
            "_line": [
              {
                "extension": [
                  {
                    "url": "http://hl7.org/fhir/StructureDefinition/iso21090-ADXP-streetName",
                    "valueString": "Avenue Prince d'Orange"
                  },
                  {
                    "url": "http://hl7.org/fhir/StructureDefinition/iso21090-ADXP-houseNumber",
                    "valueString": "377"
                  }
                ]
              }
            ],
            "city": "Braine-lʼAlleud",
            "postalCode": "1420",
            "country": "BE"
          }
        ],
        "maritalStatus": {
          "coding": [
            {
              "code": "D",
              "system": "http://terminology.hl7.org/CodeSystem/v3-MaritalStatus",
              "display": "Divorced"
            },
            {
              "code": "41",
              "system": "https://www.ehealth.fgov.be/standards/fhir/core/CodeSystem/cd-civilstate",
              "display": "Divorced since 1/10/1994"
            }
          ]
        },
        "contact": [
          {
            "relationship": [
              {
                "coding": [
                  {
                    "code": "N",
                    "system": "http://terminology.hl7.org/CodeSystem/v2-0131",
                    "display": "Next-of-Kin"
                  },
                  {
                    "code": "mother",
                    "system": "https://www.ehealth.fgov.be/standards/fhir/core/CodeSystem/cd-contact-person"
                  }
                ]
              }
            ],
            "name": {
              "family": "Vogels",
              "given": [
                "Leia"
              ]
            },
            "telecom": [
              {
                "system": "phone",
                "value": "+31201234567",
                "use": "mobile"
              }
            ]
          }
        ],
        "generalPractitioner": [
          {
            "reference": "Practitioner/practitioner1"
          }
        ]
      }
    },
    {
      "fullUrl": "urn:uuid:30551ce1-5a28-4356-b684-1e639094ad4d",
      "resource": {
        "resourceType": "Practitioner",
        "id": "practitioner1",
        "meta": {
          "versionId": "1",
          "lastUpdated": "2019-07-01T13:30:55.864+00:00",
          "profile": [
            "https://www.ehealth.fgov.be/standards/fhir/core/StructureDefinition/be-practitioner"
          ]
        },
        "identifier": [
          {
            "use": "official",
            "system": "https://www.ehealth.fgov.be/standards/fhir/core/NamingSystem/ssin",
            "value": "79121137740"
          },
          {
            "use": "official",
            "system": "https://www.ehealth.fgov.be/standards/fhir/core/NamingSystem/nihdi",
            "value": "18749704477"
          }
        ],
        "name": [
          {
            "use": "official",
            "family": "Pulaski",
            "given": [
              "Katherine"
            ],
            "suffix": [
              "MD"
            ]
          }
        ],
        "telecom": [
          {
            "system": "phone",
            "value": "022675198",
            "use": "work"
          },
          {
            "system": "email",
            "value": "katherine.pulaski@enterprisehospital.be",
            "use": "work"
          },
          {
            "system": "fax",
            "value": "022675209",
            "use": "work"
          }
        ],
        "address": [
          {
            "use": "home",
            "text": "Jupiterlaan 5, 1853 Grimbergen",
            "line": [
              "Jupiterlaan 5"
            ],
            "_line": [
              {
                "extension": [
                  {
                    "url": "http://hl7.org/fhir/StructureDefinition/iso21090-ADXP-streetName",
                    "valueString": "Jupiterlaan"
                  },
                  {
                    "url": "http://hl7.org/fhir/StructureDefinition/iso21090-ADXP-houseNumber",
                    "valueString": "5"
                  }
                ]
              }
            ],
            "city": "Grimbergen",
            "postalCode": "1853",
            "country": "BE"
          }
        ],
        "gender": "female",
        "birthDate": "1979-12-11"
      }
    },
    {
      "fullUrl": "urn:uuid:30551ce1-5a28-4356-b684-1e639094ad4d",
      "resource": {
        "resourceType": "Organization",
        "id": "organization1",
        "meta": {
          "versionId": "1",
          "lastUpdated": "2019-07-01T13:30:55.864+00:00",
          "profile": [
            "https://www.ehealth.fgov.be/standards/fhir/core/StructureDefinition/be-organization"
          ]
        },
        "identifier": [
          {
            "use": "official",
            "type": {
              "coding": [
                {
                  "code": "PRN",
                  "system": "http://terminology.hl7.org/CodeSystem/v2-0203",
                  "display": "Provider Number"
                }
              ]
            },
            "system": "https://www.ehealth.fgov.be/standards/fhir/core/NamingSystem/cbe",
            "value": "0425.222.333"
          },
          {
            "use": "official",
            "type": {
              "coding": [
                {
                  "code": "MD",
                  "system": "http://terminology.hl7.org/CodeSystem/v2-0203",
                  "display": "Medical License number"
                }
              ]
            },
            "system": "https://www.ehealth.fgov.be/standards/fhir/core/NamingSystem/nihdi",
            "value": "999999999"
          }
        ],
        "active": true,
        "type": [
          {
            "coding": [
              {
                "code": "orghospital",
                "system": "https://www.ehealth.fgov.be/standards/fhir/core/CodeSystem/cd-hcparty"
              }
            ]
          }
        ],
        "name": "Enterprise Hospital Ziekenhuis",
        "telecom": [
          {
            "system": "phone",
            "value": "+322675199",
            "use": "work"
          }
        ],
        "address": [
          {
            "extension": [
              {
                "url": "http://hl7.org/fhir/StructureDefinition/language",
                "valueCode": "nl"
              }
            ],
            "use": "work",
            "type": "both",
            "text": "Vulcansstraat 120, 1000 Brussel",
            "line": [
              "Vulcansstraat 120"
            ],
            "_line": [
              {
                "extension": [
                  {
                    "url": "http://hl7.org/fhir/StructureDefinition/iso21090-ADXP-streetName",
                    "valueString": "Vulcansstraat"
                  },
                  {
                    "url": "http://hl7.org/fhir/StructureDefinition/iso21090-ADXP-houseNumber",
                    "valueString": "120"
                  }
                ]
              }
            ],
            "city": "Brussel",
            "postalCode": "1000",
            "country": "BE"
          },
          {
            "extension": [
              {
                "url": "http://hl7.org/fhir/StructureDefinition/language",
                "valueCode": "fr"
              }
            ],
            "use": "work",
            "type": "both",
            "text": "120, Rue des Vulcans, 1000 Bruxelles",
            "line": [
              "120, Rue des Vulcans"
            ],
            "_line": [
              {
                "extension": [
                  {
                    "url": "http://hl7.org/fhir/StructureDefinition/iso21090-ADXP-streetName",
                    "valueString": "Rue des Vulcans"
                  },
                  {
                    "url": "http://hl7.org/fhir/StructureDefinition/iso21090-ADXP-houseNumber",
                    "valueString": "120"
                  }
                ]
              }
            ],
            "city": "Bruxelles",
            "postalCode": "1000",
            "country": "BE"
          }
        ]
      }
    },
    {
      "fullUrl": "urn:uuid:30551ce1-5a28-4356-b684-1e639094ad4d",
      "resource": {
        "resourceType": "Condition",
        "id": "problem-1",
        "meta": {
          "profile": [
            "https://www.ehealth.fgov.be/standards/fhir/core-clinical/StructureDefinition/be-problem"
          ]
        },
        "language": "nl",
        "identifier": [
          {
            "value": "123456"
          }
        ],
        "clinicalStatus": {
          "coding": [
            {
              "code": "active",
              "system": "http://terminology.hl7.org/CodeSystem/condition-clinical"
            }
          ]
        },
        "verificationStatus": {
          "coding": [
            {
              "code": "confirmed",
              "system": "http://terminology.hl7.org/CodeSystem/condition-ver-status"
            }
          ]
        },
        "category": [
          {
            "coding": [
              {
                "code": "problem",
                "system": "https://www.ehealth.fgov.be/standards/fhir/core-clinical/CodeSystem/be-cs-problem-category",
                "display": "Problem"
              }
            ]
          }
        ],
        "severity": {
          "coding": [
            {
              "code": "24484000",
              "system": "http://snomed.info/sct",
              "display": "Severe"
            }
          ]
        },
        "code": {
          "coding": [
            {
              "code": "11826671000119104",
              "system": "http://snomed.info/sct",
              "display": "Strain of muscle of left hand (disorder)"
            }
          ],
          "text": "Additional text"
        },
        "bodySite": [
          {
            "coding": [
              {
                "code": "IM",
                "system": "https://www.ehealth.fgov.be/standards/fhir/core-clinical/CodeSystem/be-cs-bodysite",
                "display": "Intramuscular"
              }
            ],
            "text": "left hand",
            "id": "bs-01"
          }
        ],
        "subject": {
          "reference": "Patient/etpatient0001",
          "display": "Josephine La Paradisio"
        },
        "encounter": {
          "reference": "Encounter/encounter1831"
        },
        "onsetDateTime": "2014",
        "asserter": {
          "reference": "Practitioner/practitioner1",
          "display": "Dr. Katherine Pulaski"
        },
        "recordedDate": "2019-06-30T13:30:55.864+00:00",
        "recorder": {
          "reference": "Practitioner/practitioner1"
        }
      }
    },
    {
      "fullUrl": "urn:uuid:30551ce1-5a28-4356-b684-1e639094ad4d",
      "resource": {
        "resourceType": "MedicationStatement",
        "id": "medication-1",
        "status": "active",
        "medicationReference": {
          "reference": "Medication/medication-1",
          "display": "aspirin"
        },
        "subject": {
          "reference": "Patient/etpatient0001",
          "display": "Josephine La Paradisio"
        },
        "effectivePeriod": {
          "start": "2014"
        },
        "dosage": [
          {
            "text": "80 mg/day",
            "timing": {
              "repeat": {
                "frequency": 1,
                "period": 1,
                "periodUnit": "d"
              }
            },
            "route": {
              "coding": [
                {
                  "code": "26643006",
                  "system": "http://snomed.info/sct",
                  "display": "Oral route (qualifier value)"
                }
              ]
            },
            "doseAndRate": [
              {
                "doseQuantity": {
                  "value": 80,
                  "code": "mg",
                  "system": "http://unitsofmeasure.org",
                  "unit": "mg"
                }
              }
            ]
          }
        ]
      }
    },
    {
      "fullUrl": "urn:uuid:30551ce1-5a28-4356-b684-1e639094ad4d",
      "resource": {
        "resourceType": "AllergyIntolerance",
        "id": "allergy-1",
        "meta": {
          "versionId": "1",
          "lastUpdated": "2019-07-01T13:30:55.864+00:00",
          "profile": [
            "https://www.ehealth.fgov.be/standards/fhir/allergy/StructureDefinition/be-allergyintolerance"
          ]
        },
        "extension": [
          {
            "url": "https://www.ehealth.fgov.be/standards/fhir/allergy/StructureDefinition/be-ext-allergy-type",
            "valueCodeableConcept": {
              "coding": [
                {
                  "code": "609328004",
                  "system": "http://snomed.info/sct"
                }
              ]
            }
          }
        ],
        "clinicalStatus": {
          "coding": [
            {
              "code": "active",
              "system": "http://terminology.hl7.org/CodeSystem/allergyintolerance-clinical",
              "display": "Active"
            }
          ]
        },
        "verificationStatus": {
          "coding": [
            {
              "code": "confirmed",
              "system": "http://terminology.hl7.org/CodeSystem/allergyintolerance-verification"
            }
          ]
        },
        "category": [
          "medication"
        ],
        "criticality": "high",
        "code": {
          "coding": [
            {
              "code": "44027008",
              "system": "http://snomed.info/sct",
              "display": "Seafood"
            }
          ],
          "text": "Allergic to Seafood"
        },
        "patient": {
          "reference": "Patient/etpatient0001"
        },
        "onsetDateTime": "2004-05-31",
        "recordedDate": "2004-05-31T14:58:00+11:00",
        "recorder": {
          "reference": "Practitioner/practitioner1"
        },
        "asserter": {
          "reference": "Patient/etpatient0001"
        },
        "lastOccurrence": "2004-05-31",
        "note": [
          {
            "text": "Some extra information can be given here."
          }
        ],
        "reaction": [
          {
            "substance": {
              "coding": [
                {
                  "code": "44027008",
                  "system": "http://snomed.info/sct",
                  "display": "Seafood"
                }
              ]
            },
            "manifestation": [
              {
                "coding": [
                  {
                    "code": "247472004",
                    "system": "http://snomed.info/sct",
                    "display": "Weal"
                  }
                ]
              }
            ],
            "onset": "2004-05-31",
            "severity": "severe"
          }
        ]
      }
    }
  ]
}
