{
	"resourceType": "Bundle",
	"id": "IPS-examples-Bundle-01",
	"language": "en-US",
	"identifier": {
		"system": "urn:oid:2.16.724.4.8.10.200.10",
		"value": "175bd032-8b00-4728-b2dc-748bb1501aed"
	},
	"type": "document",
	"timestamp": "2017-12-11T14:30:00+01:00",
	"entry": [
		{
			"fullUrl": "urn:uuid:30551ce1-5a28-4356-b684-1e639094ad4d",
			"resource": {
				"resourceType": "Composition",
				"id": "composition-etpatient0001",
				"text": {
					"status": "generated",
					"div": "<div xmlns=\"http://www.w3.org/1999/xhtml\"><p><b>Generated Narrative: Composition</b><a name=\"composition-minimal\"> </a></p><div style=\"display: inline-block; background-color: #d9e0e7; padding: 6px; margin: 4px; border: 1px solid #8da1b4; border-radius: 5px; line-height: 60%\"><p style=\"margin-bottom: 0px\">Resource Composition &quot;composition-minimal&quot; </p></div><p><b>status</b>: final</p><p><b>type</b>: Patient IPS Example, as produced by EarlyTracks, as of July 07, 2019 14:30 <span style=\"background: LightGoldenRodYellow; margin: 4px; border: 1px solid khaki\"> (<a href=\"https://loinc.org/\">LOINC</a>#60591-5)</span></p><p><b>date</b>: 2019-07-01T13:30:55.864+00:00</p><p><b>author</b>: <a href=\"Practitioner-practitioner1.html\">Practitioner/practitioner1</a></p><p><b>title</b>: Patient IPS Example, as produced by EarlyTracks, as of July 07, 2019 14:30</p><p><b>confidentiality</b>: N</p><blockquote><p><b>attester</b></p><p><b>mode</b>: legal</p><p><b>time</b>: 2019-07-01T13:30:55.864+00:00</p><p><b>party</b>: <a href=\"Practitioner-practitioner1.html\">Practitioner/practitioner1</a></p></blockquote><blockquote><p><b>attester</b></p><p><b>mode</b>: legal</p><p><b>time</b>: 2019-07-01T13:30:55.864+00:00</p><p><b>party</b>: <a href=\"Organization-organization1.html\">Organization/organization1</a> &quot;UZ Oudergem - CHU Auderghem&quot;</p></blockquote><p><b>custodian</b>: <a href=\"Organization-organization1.html\">Organization/organization1</a> &quot;UZ Oudergem - CHU Auderghem&quot;</p><h3>RelatesTos</h3><table class=\"grid\"><tr><td style=\"display: none\">-</td><td><b>Code</b></td><td><b>Target[x]</b></td></tr><tr><td style=\"display: none\">*</td><td>appends</td><td>id:\u00a020e12ce3-857f-49c0-b888-cb670597f191</td></tr></table><h3>Events</h3><table class=\"grid\"><tr><td style=\"display: none\">-</td><td><b>Code</b></td><td><b>Period</b></td></tr><tr><td style=\"display: none\">*</td><td>care provision <span style=\"background: LightGoldenRodYellow; margin: 4px; border: 1px solid khaki\"> (<a href=\"http://terminology.hl7.org/5.3.0/CodeSystem-v3-ActClass.html\">ActClass</a>#PCPR)</span></td><td>?? --&gt; 2019-07-01T13:30:55.864+00:00</td></tr></table></div>"
				},
				"identifier": {
					"system": "urn:oid:2.16.724.4.8.10.200.10",
					"value": "3f69e0a5-2177-4540-baab-7a5d0877428f"
				},
				"status": "final",
				"type": {
					"coding": [
						{
							"system": "http://loinc.org",
							"code": "60591-5",
							"display": "Patient summary Document"
						}
					]
				},
				"subject": {
					"reference": "Patient/etpatient0001"
				},
				"date": "2019-07-01T13:30:55.864+00:00",
				"author": [
					{
						"reference": "Practitioner/practitioner1"
					}
				],
				"title": "Patient IPS Example, as produced by EarlyTracks, as of July 07, 2019 14:30",
				"confidentiality": "N",
				"attester": [
					{
						"mode": "legal",
						"time": "2019-07-01T13:30:55.864+00:00",
						"party": {
							"reference": "Practitioner/practitioner1"
						}
					},
					{
						"mode": "legal",
						"time": "2019-07-01T13:30:55.864+00:00",
						"party": {
							"reference": "Organization/organization1"
						}
					}
				],
				"custodian": {
					"reference": "Organization/organization1"
				},
				"relatesTo": [
					{
						"code": "appends",
						"targetIdentifier": {
							"system": "urn:oid:2.16.724.4.8.10.200.10",
							"value": "c2277753-9f90-4a95-8ddb-a0b3f6e7d292"
						}
					}
				],
				"event": [
					{
						"code": [
							{
								"coding": [
									{
										"system": "http://terminology.hl7.org/CodeSystem/v3-ActClass",
										"code": "PCPR"
									}
								]
							}
						],
						"period": {
							"end": "2019-07-01T13:30:55.864+00:00"
						}
					}
				],
				"section": [
					{
						"title": "Active Problems",
						"code": {
							"coding": [
								{
									"system": "http://loinc.org",
									"code": "11450-4",
									"display": "Problem list Reported"
								}
							]
						},
						"text": {
							"status": "generated",
							"div": "<div xmlns=\"http://www.w3.org/1999/xhtml\">Severe strain of muscle of left hand</div>"
						},
						"entry": [
							{
								"reference": "Condition/problem-1"
							}
						]
					},
					{
						"title": "Medication",
						"code": {
							"coding": [
								{
									"system": "http://loinc.org",
									"code": "10160-0",
									"display": "History of Medication use Narrative"
								}
							]
						},
						"text": {
							"status": "generated",
							"div": "<div xmlns=\"http://www.w3.org/1999/xhtml\">Product containing aspirin (medicinal product)</div>"
						},
						"entry": [
							{
								"reference": "MedicationStatement/medication-1"
							}
						]
					},
					{
						"title": "Allergies and Intolerances",
						"code": {
							"coding": [
								{
									"system": "http://loinc.org",
									"code": "48765-2",
									"display": "Allergies and adverse reactions Document"
								}
							]
						},
						"text": {
							"status": "generated",
							"div": "<div xmlns=\"http://www.w3.org/1999/xhtml\">Allergic to Seafood</div>"
						},
						"entry": [
							{
								"reference": "AllergyIntolerance/allergy-1"
							}
						]
					},
					{
						"title": "History of Procedures",
						"code": {
							"coding": [
								{
									"system": "http://loinc.org",
									"code ": "47519-4",
									"display": "History of Procedures Document"
								}
							]
						},
						"text": {
							"status": "generated",
							"div": "<div xmlns=\"http://www.w3.org/1999/xhtml\">Vaginal delivery, medical personnel present (procedure)</div>"
						},
						"entry": [
							{
								"reference": "Procedure/procedure-1"
							}
						]
					}
				]
			}
		},
		{
			"fullUrl": "urn:uuid:30551ce1-5a28-4356-b684-1e639094ad4d",
			"resource": {
				"resourceType": "Patient",
				"id": "etpatient0001",
				"meta": {
					"versionId": "1",
					"lastUpdated": "2019-07-01T13:30:55.864+00:00",
					"profile": [
						"https://www.ehealth.fgov.be/standards/fhir/core/StructureDefinition/be-patient"
					]
				},
				"text": {
					"status": "generated",
					"div": "<div xmlns=\"http://www.w3.org/1999/xhtml\"><p><b>Josephine Nessa La Paradisio (OFFICIAL)</b> female, DoB: 1979-12-11 ( Medical record number: 45XXP0PA-4 (USUAL))</p></div>"
				},
				"extension": [
					{
						"url": "http://hl7.org/fhir/StructureDefinition/patient-birthPlace",
						"valueAddress": {
							"extension": [
								{
									"url": "http://hl7.org/fhir/StructureDefinition/language",
									"valueCode": "nl"
								}
							],
							"city": "Namen",
							"country": "BE"
						}
					},
					{
						"extension": [
							{
								"url": "code",
								"valueCodeableConcept": {
									"coding": [
										{
											"system": "https://www.ehealth.fgov.be/standards/fhir/core/CodeSystem/cd-fed-country",
											"code": "BE",
											"display": "Belgium"
										}
									]
								}
							}
						],
						"url": "http://hl7.org/fhir/StructureDefinition/patient-nationality"
					}
				],
				"identifier": [
					{
						"use": "official",
						"type": {
							"coding": [
								{
									"system": "http://terminology.hl7.org/CodeSystem/v2-0203",
									"code": "SB",
									"display": "Social Beneficiary Identifier"
								}
							]
						},
						"system": "https://www.ehealth.fgov.be/standards/fhir/core/NamingSystem/ssin",
						"value": "79121137740"
					},
					{
						"use": "usual",
						"type": {
							"coding": [
								{
									"system": "http://terminology.hl7.org/CodeSystem/v2-0203",
									"code": "MR",
									"display": "Medical record number"
								}
							]
						},
						"system": "https://www.goodhealthhospital.be/standards/fhir/NamingSystem/patientrecord",
						"value": "45XXP0PA-4"
					}
				],
				"active": true,
				"name": [
					{
						"use": "official",
						"family": "La Paradisio",
						"given": [
							"Josephine",
							"Nessa"
						]
					}
				],
				"telecom": [
					{
						"system": "email",
						"value": "nessa.laparadisio@belgium.be"
					},
					{
						"system": "phone",
						"value": "+322476792979",
						"use": "mobile"
					},
					{
						"system": "phone",
						"value": "+3226718655",
						"use": "home"
					},
					{
						"system": "phone",
						"value": "+322476799",
						"use": "work"
					}
				],
				"gender": "female",
				"birthDate": "1979-12-11",
				"_birthDate": {
					"extension": [
						{
							"url": "http://hl7.org/fhir/StructureDefinition/patient-birthTime",
							"valueDateTime": "1979-12-11T13:28:17-05:00"
						}
					]
				},
				"address": [
					{
						"extension": [
							{
								"url": "http://hl7.org/fhir/StructureDefinition/language",
								"valueCode": "nl"
							}
						],
						"use": "home",
						"type": "both",
						"text": "Sloordelle 42, 1160 Oudergem",
						"line": [
							"Sloordelle 42"
						],
						"_line": [
							{
								"extension": [
									{
										"url": "http://hl7.org/fhir/StructureDefinition/iso21090-ADXP-streetName",
										"valueString": "Sloordelle"
									},
									{
										"url": "http://hl7.org/fhir/StructureDefinition/iso21090-ADXP-houseNumber",
										"valueString": "42"
									}
								]
							}
						],
						"city": "Oudergem",
						"postalCode": "1160",
						"country": "BE"
					},
					{
						"extension": [
							{
								"url": "http://hl7.org/fhir/StructureDefinition/language",
								"valueCode": "fr"
							}
						],
						"use": "home",
						"type": "both",
						"text": "42, Allee des Colzas, 1160 Auderghem",
						"line": [
							"42, Allee des Colzas"
						],
						"_line": [
							{
								"extension": [
									{
										"url": "http://hl7.org/fhir/StructureDefinition/iso21090-ADXP-streetName",
										"valueString": "Allee des Colzas"
									},
									{
										"url": "http://hl7.org/fhir/StructureDefinition/iso21090-ADXP-houseNumber",
										"valueString": "42"
									}
								]
							}
						],
						"city": "Auderghem",
						"postalCode": "1160",
						"country": "BE"
					},
					{
						"use": "work",
						"type": "both",
						"text": "377, Avenue Prince d'Orange, 1420 Braine-lʼAlleud",
						"line": [
							"377, Avenue Prince d'Orange"
						],
						"_line": [
							{
								"extension": [
									{
										"url": "http://hl7.org/fhir/StructureDefinition/iso21090-ADXP-streetName",
										"valueString": "Avenue Prince d'Orange"
									},
									{
										"url": "http://hl7.org/fhir/StructureDefinition/iso21090-ADXP-houseNumber",
										"valueString": "377"
									}
								]
							}
						],
						"city": "Braine-lʼAlleud",
						"postalCode": "1420",
						"country": "BE"
					}
				],
				"maritalStatus": {
					"coding": [
						{
							"system": "http://terminology.hl7.org/CodeSystem/v3-MaritalStatus",
							"code": "D",
							"display": "Divorced"
						},
						{
							"system": "https://www.ehealth.fgov.be/standards/fhir/core/CodeSystem/cd-civilstate",
							"code": "41",
							"display": "Divorced since 1/10/1994"
						}
					]
				},
				"contact": [
					{
						"relationship": [
							{
								"coding": [
									{
										"system": "http://terminology.hl7.org/CodeSystem/v2-0131",
										"code": "N",
										"display": "Next-of-Kin"
									},
									{
										"system": "https://www.ehealth.fgov.be/standards/fhir/core/CodeSystem/cd-contact-person",
										"code": "mother"
									}
								]
							}
						],
						"name": {
							"family": "Vogels",
							"given": [
								"Leia"
							]
						},
						"telecom": [
							{
								"system": "phone",
								"value": "+31201234567",
								"use": "mobile"
							}
						]
					}
				],
				"generalPractitioner": [
					{
						"reference": "Practitioner/practitioner1"
					}
				]
			}
		},
		{
			"fullUrl": "urn:uuid:30551ce1-5a28-4356-b684-1e639094ad4d",
			"resource": {
				"resourceType": "Practitioner",
				"id": "practitioner1",
				"meta": {
					"versionId": "1",
					"lastUpdated": "2019-07-01T13:30:55.864+00:00",
					"profile": [
						"https://www.ehealth.fgov.be/standards/fhir/core/StructureDefinition/be-practitioner"
					]
				},
				"text": {
					"status": "generated",
					"div": "<div xmlns=\"http://www.w3.org/1999/xhtml\"><p><b>Generated Narrative</b></p><div style=\"display: inline-block; background-color: #d9e0e7; padding: 6px; margin: 4px; border: 1px solid #8da1b4; border-radius: 5px; line-height: 60%\"><p style=\"margin-bottom: 0px\">Resource \"practitioner1\" Version \"1\" Updated \"2019-07-01 01:30:55+0000\" </p><p style=\"margin-bottom: 0px\">Profile: <a href=\"StructureDefinition-be-practitioner.html\">BePractitioner</a></p></div><p><b>identifier</b>: id: 79121137740 (OFFICIAL), id: 18749704477 (OFFICIAL)</p><p><b>name</b>: Katherine Pulaski (OFFICIAL)</p><p><b>telecom</b>: ph: 022675198(WORK), <a href=\"mailto:katherine.pulaski@enterprisehospital.be\">katherine.pulaski@enterprisehospital.be</a>, fax: 022675209(WORK)</p><p><b>address</b>: Jupiterlaan 5, 1853 Grimbergen(HOME)</p><p><b>gender</b>: female</p><p><b>birthDate</b>: 1979-12-11</p></div>"
				},
				"identifier": [
					{
						"use": "official",
						"system": "https://www.ehealth.fgov.be/standards/fhir/core/NamingSystem/ssin",
						"value": "79121137740"
					},
					{
						"use": "official",
						"system": "https://www.ehealth.fgov.be/standards/fhir/core/NamingSystem/nihdi",
						"value": "18749704477"
					}
				],
				"name": [
					{
						"use": "official",
						"family": "Pulaski",
						"given": [
							"Katherine"
						],
						"suffix": [
							"MD"
						]
					}
				],
				"telecom": [
					{
						"system": "phone",
						"value": "022675198",
						"use": "work"
					},
					{
						"system": "email",
						"value": "katherine.pulaski@enterprisehospital.be",
						"use": "work"
					},
					{
						"system": "fax",
						"value": "022675209",
						"use": "work"
					}
				],
				"address": [
					{
						"use": "home",
						"text": "Jupiterlaan 5, 1853 Grimbergen",
						"line": [
							"Jupiterlaan 5"
						],
						"_line": [
							{
								"extension": [
									{
										"url": "http://hl7.org/fhir/StructureDefinition/iso21090-ADXP-streetName",
										"valueString": "Jupiterlaan"
									},
									{
										"url": "http://hl7.org/fhir/StructureDefinition/iso21090-ADXP-houseNumber",
										"valueString": "5"
									}
								]
							}
						],
						"city": "Grimbergen",
						"postalCode": "1853",
						"country": "BE"
					}
				],
				"gender": "female",
				"birthDate": "1979-12-11"
			}
		},
		{
			"fullUrl": "urn:uuid:30551ce1-5a28-4356-b684-1e639094ad4d",
			"resource": {
				"resourceType": "Organization",
				"id": "organization1",
				"meta": {
					"versionId": "1",
					"lastUpdated": "2019-07-01T13:30:55.864+00:00",
					"profile": [
						"https://www.ehealth.fgov.be/standards/fhir/core/StructureDefinition/be-organization"
					]
				},
				"text": {
					"status": "generated",
					"div": "<div xmlns=\"http://www.w3.org/1999/xhtml\"><p><b>Generated Narrative</b></p><div style=\"display: inline-block; background-color: #d9e0e7; padding: 6px; margin: 4px; border: 1px solid #8da1b4; border-radius: 5px; line-height: 60%\"><p style=\"margin-bottom: 0px\">Resource \"organization1\" Version \"1\" Updated \"2019-07-01 01:30:55+0000\" </p><p style=\"margin-bottom: 0px\">Profile: <a href=\"StructureDefinition-be-organization.html\">BeOrganization</a></p></div><p><b>identifier</b>: Provider Number: 0425.222.333 (OFFICIAL), Medical License number: 999999999 (OFFICIAL)</p><p><b>active</b>: true</p><p><b>type</b>: hospital <span style=\"background: LightGoldenRodYellow; margin: 4px; border: 1px solid khaki\"> (<a href=\"CodeSystem-cd-hcparty.html\">BeCdHcParty</a>#orghospital)</span></p><p><b>name</b>: Enterprise Hospital Ziekenhuis</p><p><b>telecom</b>: <a href=\"tel:+322675199\">+322675199</a></p><p><b>address</b>: </p><ul><li>Vulcansstraat 120, 1000 Brussel(WORK)</li><li>120, Rue des Vulcans, 1000 Bruxelles(WORK)</li></ul></div>"
				},
				"identifier": [
					{
						"use": "official",
						"type": {
							"coding": [
								{
									"system": "http://terminology.hl7.org/CodeSystem/v2-0203",
									"code": "PRN",
									"display": "Provider Number"
								}
							]
						},
						"system": "https://www.ehealth.fgov.be/standards/fhir/core/NamingSystem/cbe",
						"value": "0425.222.333"
					},
					{
						"use": "official",
						"type": {
							"coding": [
								{
									"system": "http://terminology.hl7.org/CodeSystem/v2-0203",
									"code": "MD",
									"display": "Medical License number"
								}
							]
						},
						"system": "https://www.ehealth.fgov.be/standards/fhir/core/NamingSystem/nihdi",
						"value": "999999999"
					}
				],
				"active": true,
				"type": [
					{
						"coding": [
							{
								"system": "https://www.ehealth.fgov.be/standards/fhir/core/CodeSystem/cd-hcparty",
								"code": "orghospital"
							}
						]
					}
				],
				"name": "Enterprise Hospital Ziekenhuis",
				"telecom": [
					{
						"system": "phone",
						"value": "+322675199",
						"use": "work"
					}
				],
				"address": [
					{
						"extension": [
							{
								"url": "http://hl7.org/fhir/StructureDefinition/language",
								"valueCode": "nl"
							}
						],
						"use": "work",
						"type": "both",
						"text": "Vulcansstraat 120, 1000 Brussel",
						"line": [
							"Vulcansstraat 120"
						],
						"_line": [
							{
								"extension": [
									{
										"url": "http://hl7.org/fhir/StructureDefinition/iso21090-ADXP-streetName",
										"valueString": "Vulcansstraat"
									},
									{
										"url": "http://hl7.org/fhir/StructureDefinition/iso21090-ADXP-houseNumber",
										"valueString": "120"
									}
								]
							}
						],
						"city": "Brussel",
						"postalCode": "1000",
						"country": "BE"
					},
					{
						"extension": [
							{
								"url": "http://hl7.org/fhir/StructureDefinition/language",
								"valueCode": "fr"
							}
						],
						"use": "work",
						"type": "both",
						"text": "120, Rue des Vulcans, 1000 Bruxelles",
						"line": [
							"120, Rue des Vulcans"
						],
						"_line": [
							{
								"extension": [
									{
										"url": "http://hl7.org/fhir/StructureDefinition/iso21090-ADXP-streetName",
										"valueString": "Rue des Vulcans"
									},
									{
										"url": "http://hl7.org/fhir/StructureDefinition/iso21090-ADXP-houseNumber",
										"valueString": "120"
									}
								]
							}
						],
						"city": "Bruxelles",
						"postalCode": "1000",
						"country": "BE"
					}
				]
			}
		},
		{
			"fullUrl": "urn:uuid:30551ce1-5a28-4356-b684-1e639094ad4d",
			"resource": {
				"resourceType": "Condition",
				"id": "problem-1",
				"text": {
					"status": "generated",
					"div": "<div xmlns=\"http://www.w3.org/1999/xhtml\"><p><b>Generated Narrative: Condition</b><a name=\"eumfh-39-07-1\"> </a></p><div style=\"display: inline-block; background-color: #d9e0e7; padding: 6px; margin: 4px; border: 1px solid #8da1b4; border-radius: 5px; line-height: 60%\"><p style=\"margin-bottom: 0px\">Resource Condition &quot;eumfh-39-07-1&quot; </p></div><p><b>clinicalStatus</b>: Active <span style=\"background: LightGoldenRodYellow; margin: 4px; border: 1px solid khaki\"> (<a href=\"http://terminology.hl7.org/5.3.0/CodeSystem-condition-clinical.html\">Condition Clinical Status Codes</a>#active)</span></p><p><b>category</b>: Problem <span style=\"background: LightGoldenRodYellow; margin: 4px; border: 1px solid khaki\"> (<a href=\"https://loinc.org/\">LOINC</a>#75326-9)</span></p><p><b>code</b>: Acute myocardial infarction of anterior wall <span style=\"background: LightGoldenRodYellow; margin: 4px; border: 1px solid khaki\"> (<a href=\"https://browser.ihtsdotools.org/\">SNOMED CT</a>#11826671000119104)</p></div>"
				},
				"language": "nl",
				"identifier": [{
					"value": "123456"
				}],
				"clinicalStatus": {
					"coding": [
						{
							"system": "http://terminology.hl7.org/CodeSystem/condition-clinical",
							"code": "active"
						}
					]
				},
				"verificationStatus": {
					"coding": [
						{
							"system": "http://terminology.hl7.org/CodeSystem/condition-ver-status",
							"code": "confirmed"
						}
					]
				},
				"category": [
					{
						"coding": [
							{
								"system": "https://www.ehealth.fgov.be/standards/fhir/core-clinical/CodeSystem/be-cs-problem-category",
								"code": "problem",
								"display": "Problem"
							}
						]
					}
				],
				"severity": {
					"coding": [
						{
							"system": "http://snomed.info/sct",
							"code": "24484000",
							"display": "Severe"
						}
					]
				},
				"code": {
					"coding": [
						{
							"system": "http://snomed.info/sct",
							"code": "11826671000119104",
							"display": "Strain of muscle of left hand (disorder)"
						}
					]
				},
				"bodySite": [{
					"coding": [
						{
							"system": "https://www.ehealth.fgov.be/standards/fhir/core-clinical/CodeSystem/be-cs-bodysite",
							"code": "IM",
							"display": "Intramuscular"
						}
					],
					"text": "left hand",
					"id": "bs-01"
				}],
				"subject": {
					"reference": "Patient/etpatient0001",
					"display": "Josephine La Paradisio"
				},
				"encounter": {
					"reference": "Encounter/encounter1831"
				},
				"onsetDateTime": "2014",
				"asserter": {
					"reference": "Practitioner/practitioner1",
					"display": "Dr. Katherine Pulaski"
				},
				"recordedDate": "2019-06-30T13:30:55.864+00:00",
				"recorder": {
					"reference": "practitioner1"
				}
			}
		},
		{
			"fullUrl": "urn:uuid:30551ce1-5a28-4356-b684-1e639094ad4d",
			"resource": {
				"resourceType": "MedicationStatement",
				"id": "medication-1",
				"text": {
					"status": "generated",
					"div": "<div xmlns=\"http://www.w3.org/1999/xhtml\"><p><b>Generated Narrative: MedicationStatement</b><a name=\"example006\"> </a></p><div style=\"display: inline-block; background-color: #d9e0e7; padding: 6px; margin: 4px; border: 1px solid #8da1b4; border-radius: 5px; line-height: 60%\"><p style=\"margin-bottom: 0px\">Resource MedicationStatement &quot;example006&quot; </p></div><p><b>status</b>: recorded</p><h3>Medications</h3><table class=\"grid\"><tr><td>-</td><td><b>Concept</b></td></tr><tr><td>*</td><td>Amoxicillin (product) <span style=\"background: LightGoldenRodYellow; margin: 4px; border: 1px solid khaki\"> (<a href=\"https://browser.ihtsdotools.org/\">SNOMED CT</a>#27658006)</span></td></tr></table><p><b>subject</b>: <a href=\"patient-example-a.html\">Patient/pat1: Donald Duck</a> &quot;Donald DUCK&quot;</p><p><b>effective</b>: 2014-02-01</p><p><b>dateAsserted</b>: 2014-02-22</p><p><b>informationSource</b>: <a href=\"relatedperson-example-peter.html\">RelatedPerson/peter: Peter Chalmers</a> &quot;Peter CHALMERS&quot;</p><p><b>note</b>: Father indicates they miss the occasional dose</p><blockquote><p><b>dosage</b></p><p><b>sequence</b>: 1</p><p><b>text</b>: 5ml three times daily</p><p><b>asNeeded</b>: false</p><p><b>route</b>: Oral <span style=\"background: LightGoldenRodYellow; margin: 4px; border: 1px solid khaki\"> (<a href=\"https://browser.ihtsdotools.org/\">SNOMED CT</a>#260548002)</span></p><blockquote><p><b>doseAndRate</b></p></blockquote><p><b>maxDosePerPeriod</b>: 3/1 d<span style=\"background: LightGoldenRodYellow\"> (Details: UCUM code d = 'd')</span></p></blockquote></div>"
				},
				"status": "recorded",
				"medication": {
					"concept": {
						"coding": [
							{
								"system": "http://snomed.info/sct",
								"code": "7947003",
								"display": "Product containing aspirin (medicinal product)"
							}
						]
					}
				},
				"subject": {
					"reference": "Patient/etpatient0001",
					"display": "Joseph van Nassau"
				},
				"effectiveDateTime": "2022-06-13",
				"dateAsserted": "2022-06-13",
				"informationSource": [
					{
						"reference": "Patient/etpatient0001",
						"display": "Joseph van Nassau"
					}
				],
				"dosage": [
					{
						"sequence": 1,
						"text": "80 mg once a day",
						"asNeeded": false,
						"route": {
							"coding": [
								{
									"system": "http://snomed.info/sct",
									"code": "26643006",
									"display": "Oral route (qualifier value)"
								}
							]
						},
						"doseAndRate": [
							{
								"type": {
									"coding": [
										{
											"system": "http://terminology.hl7.org/CodeSystem/dose-rate-type",
											"code": "ordered",
											"display": "Ordered"
										}
									]
								},
								"doseQuantity": {
									"value": 80,
									"unit": "mg",
									"system": "http://unitsofmeasure.org",
									"code": "mg"
								}
							}
						],
						"maxDosePerPeriod": [
							{
								"numerator": {
									"value": 1
								},
								"denominator": {
									"value": 1,
									"system": "http://unitsofmeasure.org",
									"code": "d"
								}
							}
						]
					}
				]
			}
		},
		{
			"fullUrl": "urn:uuid:30551ce1-5a28-4356-b684-1e639094ad4d",
			"resource": {
				"resourceType": "AllergyIntolerance",
				"id": "allergy-1",
				"meta": {
					"versionId": "1",
					"lastUpdated": "2019-07-01T13:30:55.864+00:00",
					"profile": [
						"https://www.ehealth.fgov.be/standards/fhir/allergy/StructureDefinition/be-allergyintolerance"
					]
				},
				"text": {
					"status": "extensions",
					"div": "<div xmlns=\"http://www.w3.org/1999/xhtml\"><p><b>Generated Narrative: AllergyIntolerance</b><a name=\"allergyintolerance2\"> </a></p><div style=\"display: inline-block; background-color: #d9e0e7; padding: 6px; margin: 4px; border: 1px solid #8da1b4; border-radius: 5px; line-height: 60%\"><p style=\"margin-bottom: 0px\">Resource AllergyIntolerance &quot;allergyintolerance2&quot; Version &quot;1&quot; Updated &quot;2019-07-01 13:30:55+0000&quot; </p><p style=\"margin-bottom: 0px\">Profile: <a href=\"StructureDefinition-be-allergyintolerance.html\">BeAllergyIntolerance</a></p></div><p><b>BeExtAllergyType</b>: Allergy <span style=\"background: LightGoldenRodYellow; margin: 4px; border: 1px solid khaki\"> (<a href=\"https://browser.ihtsdotools.org/\">SNOMED CT</a>#609328004)</span></p><p><b>clinicalStatus</b>: Active <span style=\"background: LightGoldenRodYellow; margin: 4px; border: 1px solid khaki\"> (<a href=\"http://terminology.hl7.org/3.1.0/CodeSystem-allergyintolerance-clinical.html\">AllergyIntolerance Clinical Status Codes</a>#active)</span></p><p><b>verificationStatus</b>: Confirmed <span style=\"background: LightGoldenRodYellow; margin: 4px; border: 1px solid khaki\"> (<a href=\"http://terminology.hl7.org/3.1.0/CodeSystem-allergyintolerance-verification.html\">AllergyIntolerance Verification Status</a>#confirmed)</span></p><p><b>category</b>: environment</p><p><b>criticality</b>: high</p><p><b>code</b>: Allergic to pollen <span style=\"background: LightGoldenRodYellow; margin: 4px; border: 1px solid khaki\"> (<a href=\"https://browser.ihtsdotools.org/\">SNOMED CT</a>#256259004 &quot;Pollen&quot;)</span></p><p><b>patient</b>: <a href=\"Patient-example.html\">Patient/example</a> &quot; LA PARADISIO&quot;</p><p><b>onset</b>: 2004</p><p><b>recordedDate</b>: 2014-10-09 14:58:00+1100</p><p><b>recorder</b>: <a href=\"Practitioner-practitioner.html\">Practitioner/practitioner</a> &quot; PULASKI&quot;</p><p><b>asserter</b>: <a href=\"Patient-example.html\">Patient/example</a> &quot; LA PARADISIO&quot;</p><p><b>lastOccurrence</b>: 2012-06</p><p><b>note</b>: Some extra information can be given here.</p><blockquote><p><b>reaction</b></p><p><b>substance</b>: Silver Birch pollen <span style=\"background: LightGoldenRodYellow; margin: 4px; border: 1px solid khaki\"> (<a href=\"https://browser.ihtsdotools.org/\">SNOMED CT</a>#256262001)</span></p><p><b>manifestation</b>: Cough <span style=\"background: LightGoldenRodYellow; margin: 4px; border: 1px solid khaki\"> (<a href=\"https://browser.ihtsdotools.org/\">SNOMED CT</a>#49727002)</span></p><p><b>onset</b>: 2012-06-12</p><p><b>severity</b>: severe</p></blockquote><blockquote><p><b>reaction</b></p><p><b>substance</b>: Douglas fir pollen <span style=\"background: LightGoldenRodYellow; margin: 4px; border: 1px solid khaki\"> (<a href=\"https://browser.ihtsdotools.org/\">SNOMED CT</a>#710732007)</span></p><p><b>manifestation</b>: Cough <span style=\"background: LightGoldenRodYellow; margin: 4px; border: 1px solid khaki\"> (<a href=\"https://browser.ihtsdotools.org/\">SNOMED CT</a>#49727002)</span></p><p><b>onset</b>: 2012-06-12</p><p><b>severity</b>: mild</p></blockquote></div>"
				},
				"extension": [
					{
						"url": "https://www.ehealth.fgov.be/standards/fhir/allergy/StructureDefinition/be-ext-allergy-type",
						"valueCodeableConcept": {
							"coding": [
								{
									"system": "http://snomed.info/sct",
									"code": "609328004"
								}
							]
						}
					}
				],
				"clinicalStatus": {
					"coding": [
						{
							"system": "http://terminology.hl7.org/CodeSystem/allergyintolerance-clinical",
							"code": "active",
							"display": "Active"
						}
					]
				},
				"verificationStatus": {
					"coding": [
						{
							"system": "http://terminology.hl7.org/CodeSystem/allergyintolerance-verification",
							"code": "confirmed"
						}
					]
				},
				"category": [
					"medication"
				],
				"criticality": "high",
				"code": {
					"coding": [
						{
							"system": "http://snomed.info/sct",
							"code": "44027008",
							"display": "Seafood"
						}
					],
					"text": "Allergic to Seafood"
				},
				"patient": {
					"reference": "etpatient0001"
				},
				"onsetDateTime": "2004-05-31",
				"recordedDate": "2004-05-31T14:58:00+11:00",
				"recorder": {
					"reference": "practitioner1"
				},
				"asserter": {
					"reference": "etpatient0001"
				},
				"lastOccurrence": "2004-05-31",
				"note": [
					{
						"text": "Some extra information can be given here."
					}
				],
				"reaction": [
					{
						"substance": {
							"coding": [
								{
									"system": "http://snomed.info/sct",
									"code": "44027008",
									"display": "Seafood"
								}
							]
						},
						"manifestation": [
							{
								"coding": [
									{
										"system": "http://snomed.info/sct",
										"code": "247472004",
										"display": "Weal"
									}
								]
							}
						],
						"onset": "2004-05-31",
						"severity": "severe"
					}
				]
			}
		}
	]
}
